'916_2771.nad' 'Jun 08 2014 19:25' 'I'         15.    1  'TIME'   42  'RAW'
  Filename         Date            Scan       Mon    Prf  Base   #pts  Type    
0.5 mT after 20 mT wafer 916 LHHTML JED191          F1: OFF  F2: OFF 
 460    1  500  512 608 512   0   4.7500  0.00000 0.00000   0.00000    1 
 Collimation      Mosaic    Wavelength   T-Start   Incr.   H-field #Det    
  1       1.22935    0.02459    2.23742
  2       1.22935    0.02459    2.23742
  3       2.16626    0.04338    3.94476
  4       4.33251    0.08676    7.88953
  5       3.68806    0.07376    6.71227
  6       4.91741    0.09835    8.94969
 Mot:    Start       Step      End
     A4        A3        A1        A2        A5        A6     MIN      MONITOR      COUNTS   _q    _w  
    4.33230     2.16630     1.22660     1.23000     3.68680     4.91820 0.25       80566         242     0.10000     1.51197 
    4.41900     2.20960     1.25140     1.25480     3.76110     5.01650 0.26       83645         222     0.10200     1.54221 
    4.50580     2.25300     1.27560     1.27890     3.83480     5.11480 0.26       88218         209     0.10400     1.57245 
    4.59240     2.29630     1.29980     1.30310     3.90840     5.21310 0.27       91550         205     0.10600     1.60269 
    4.67920     2.33970     1.32520     1.32790     3.98210     5.31140 0.28       96011         167     0.10800     1.63293 
    4.76580     2.38300     1.35000     1.35240     4.05640     5.40970 0.29      100214         129     0.11000     1.66317 
    4.85250     2.42640     1.37600     1.37690     4.13000     5.50800 0.29      104299          71     0.11200     1.69341 
    4.93930     2.46970     1.39900     1.40200     4.20430     5.60630 0.30      108917          29     0.11400     1.72365 
    5.02590     2.51310     1.42440     1.42650     4.27800     5.70480 0.31      113336          22     0.11600     1.75389 
    5.11270     2.55650     1.44920     1.45070     4.35170     5.80310 0.32      118290           9     0.11800     1.78413 
    5.19940     2.59980     1.47340     1.47550     4.42530     5.90170 0.32      122778          15     0.12000     1.81437 
    5.28610     2.64320     1.49760     1.50000     4.49900     6.00000 0.33      128235          15     0.12200     1.84461 
    5.37280     2.68650     1.52300     1.52450     4.57260     6.09830 0.34      133007           7     0.12400     1.87485 
    5.45950     2.72990     1.54660     1.54900     4.64690     6.19650 0.35      137700          13     0.12600     1.90508 
    5.54630     2.77330     1.57140     1.57380     4.72060     6.29480 0.36      143558           7     0.12800     1.93532 
    5.63300     2.81660     1.59620     1.59860     4.79360     6.39310 0.36      149507           8     0.13000     1.96556 
    5.71980     2.86000     1.62040     1.62310     4.86730     6.49170 0.37      154727           9     0.13200     1.99580 
    5.80650     2.90340     1.64520     1.64820     4.94090     6.59000 0.38      160216           7     0.13400     2.02604 
    5.89330     2.94670     1.67060     1.67210     5.01460     6.68830 0.39      166098          12     0.13600     2.05628 
    5.98000     2.99010     1.69420     1.69630     5.08830     6.78660 0.40      173333           9     0.13800     2.08652 
    6.06680     3.03350     1.71900     1.72110     5.16260     6.88490 0.41      178703          10     0.14000     2.11676 
    6.15350     3.07690     1.74440     1.74530     5.23690     6.98340 0.42      186751          16     0.14200     2.14700 
    6.24030     3.12020     1.76920     1.77010     5.31050     7.08150 0.43      192069           9     0.14400     2.17724 
    6.32700     3.16360     1.79340     1.79460     5.38420     7.18000 0.44      200003          12     0.14600     2.20748 
    6.41380     3.20700     1.81820     1.81970     5.45780     7.27830 0.45      205738          15     0.14800     2.23772 
    6.50050     3.25040     1.84180     1.84450     5.53150     7.37690 0.46      213837          23     0.15000     2.26796 
    6.58730     3.29380     1.86660     1.86870     5.60580     7.47520 0.47      222019          22     0.15200     2.29820 
    6.67400     3.33710     1.89010     1.89350     5.67950     7.57370 0.48      229000          30     0.15400     2.32844 
    6.76090     3.38050     1.91490     1.91770     5.75310     7.67180 0.49      236951          38     0.15600     2.35868 
    6.84780     3.42390     1.93970     1.94250     5.82680     7.77010 0.50      245054          33     0.15800     2.38892 
    6.93440     3.46730     1.96390     1.96730     5.90040     7.86840 0.51      252051          37     0.16000     2.41916 
    7.02120     3.51070     1.98870     1.99180     5.97410     7.96690 0.52      259789          54     0.16200     2.44939 
    7.10800     3.55410     2.01290     2.01660     6.04840     8.06520 0.53      269603          73     0.16400     2.47963 
    7.19480     3.59750     2.03830     2.04110     6.12140     8.16350 0.54      278240          76     0.16600     2.50987 
    7.28170     3.64090     2.06190     2.06560     6.19510     8.26180 0.55      285702          93     0.16800     2.54011 
    7.36840     3.68430     2.08730     2.08970     6.26870     8.36010 0.56      296194         101     0.17000     2.57035 
    7.45530     3.72770     2.11210     2.11420     6.34240     8.45840 0.58      304271         126     0.17200     2.60059 
    7.54200     3.77110     2.13760     2.13900     6.41610     8.55700 0.59      313045         132     0.17400     2.63083 
    7.62890     3.81450     2.16170     2.16380     6.49030     8.65530 0.60      321674         151     0.17600     2.66107 
    7.71570     3.85800     2.18590     2.18830     6.56400     8.75360 0.61      332661         174     0.17800     2.69131 
    7.80250     3.90140     2.21070     2.21280     6.63830     8.85190 0.62      342514         169     0.18000     2.72155 
    7.88940     3.94480     2.23620     2.23760     6.71200     8.95040 0.64      352436         187     0.18200     2.75179 
