'lit_2776.ndd' 'Jun 09 2014 06:50' 'I'         10.    1  'TIME'   51  'RAW'
  Filename         Date            Scan       Mon    Prf  Base   #pts  Type    
2 mT wafer 916 LHHTML JED191                        F1: ON   F2: ON  
 460    1  500  512 608 512   0   4.7500  0.00000 0.00000   0.00000    1 
 Collimation      Mosaic    Wavelength   T-Start   Incr.   H-field #Det    
  1       1.22935    0.02459    2.45871
  2       1.22935    0.02459    2.45871
  3       0.00000    0.00000    0.00000
  4       0.00000    0.00000    0.00000
  5       3.68806    0.07376    7.37612
  6       4.91741    0.09835    9.83482
 Mot:    Start       Step      End
     A1        A2        A5        A6     MIN      MONITOR      COUNTS   _q    _w  
    1.22540     1.23000     3.68680     4.91840 0.17       54149        9233     0.10000     1.51197 
    1.25450     1.25480     3.76110     5.01670 0.16       54476        9446     0.10200     1.54221 
    1.27990     1.27890     3.83480     5.11500 0.16       54130        9574     0.10400     1.57245 
    1.30410     1.30340     3.90840     5.21310 0.16       54020        9795     0.10600     1.60269 
    1.32890     1.32790     3.98270     5.31160 0.16       54475       10011     0.10800     1.63293 
    1.35250     1.35240     4.05640     5.40990 0.15       55172       10253     0.11000     1.66317 
    1.37790     1.37690     4.13000     5.50820 0.15       55571       10382     0.11200     1.69341 
    1.40150     1.40200     4.20430     5.60650 0.15       55397       10651     0.11400     1.72365 
    1.42810     1.42650     4.27800     5.70480 0.15       55018       10929     0.11600     1.75389 
    1.45290     1.45100     4.35230     5.80340 0.15       55234       11132     0.11800     1.78413 
    1.47710     1.47550     4.42530     5.90190 0.14       55150       11260     0.12000     1.81437 
    1.50190     1.50000     4.49900     6.00020 0.14       55541       11833     0.12200     1.84461 
    1.52670     1.52450     4.57260     6.09850 0.14       55562       11864     0.12400     1.87485 
    1.55090     1.54900     4.64690     6.19650 0.14       55774       12040     0.12600     1.90508 
    1.57510     1.57380     4.72060     6.29480 0.14       55875       12309     0.12800     1.93532 
    1.59990     1.59860     4.79360     6.39340 0.14       56436       12651     0.13000     1.96556 
    1.62470     1.62340     4.86730     6.49200 0.13       56317       12841     0.13200     1.99580 
    1.65010     1.64850     4.94090     6.59020 0.13       56103       13099     0.13400     2.02604 
    1.67490     1.67240     5.01460     6.68850 0.13       56515       13229     0.13600     2.05628 
    1.69850     1.69660     5.08830     6.78680 0.13       56443       13742     0.13800     2.08652 
    1.72330     1.72110     5.16260     6.88490 0.13       56711       13748     0.14000     2.11676 
    1.74810     1.74560     5.23690     6.98340 0.13       56687       14134     0.14200     2.14700 
    1.77170     1.77010     5.31050     7.08170 0.13       56948       14316     0.14400     2.17724 
    1.79650     1.79460     5.38420     7.18030 0.12       57059       14523     0.14600     2.20748 
    1.82130     1.81970     5.45780     7.27830 0.12       56829       14875     0.14800     2.23772 
    1.84550     1.84450     5.53150     7.37690 0.12       57788       15301     0.15000     2.26796 
    1.87030     1.86870     5.60580     7.47540 0.12       57329       15117     0.15200     2.29820 
    1.89450     1.89350     5.67950     7.57370 0.12       57785       15577     0.15400     2.32844 
    1.91930     1.91800     5.75310     7.67180 0.12       58430       15718     0.15600     2.35868 
    1.94410     1.94250     5.82680     7.77030 0.12       57763       16216     0.15800     2.38892 
    1.96830     1.96730     5.90040     7.86840 0.12       58356       16692     0.16000     2.41916 
    1.99370     1.99180     5.97410     7.96690 0.12       58441       16705     0.16200     2.44939 
    2.01850     2.01660     6.04840     8.06520 0.11       58664       17203     0.16400     2.47963 
    2.04270     2.04110     6.12140     8.16380 0.11       58656       17637     0.16600     2.50987 
    2.06750     2.06560     6.19510     8.26180 0.11       58753       17703     0.16800     2.54011 
    2.09230     2.08970     6.26870     8.36010 0.11       59037       17944     0.17000     2.57035 
    2.11650     2.11420     6.34240     8.45870 0.11       59044       18063     0.17200     2.60059 
    2.14070     2.13900     6.41610     8.55700 0.11       59063       18413     0.17400     2.63083 
    2.16480     2.16380     6.49030     8.65530 0.11       59461       18824     0.17600     2.66107 
    2.18900     2.18830     6.56400     8.75380 0.11       58696       18892     0.17800     2.69131 
    2.21380     2.21310     6.63830     8.85210 0.11       59678       19410     0.18000     2.72155 
    2.23930     2.23760     6.71200     8.95070 0.11       59761       19796     0.18200     2.75179 
    2.26280     2.26240     6.78630     9.04870 0.11       59734       19524     0.18400     2.78203 
    2.28760     2.28660     6.85990     9.14730 0.11       59970       20048     0.18600     2.81227 
    2.31180     2.31170     6.93360     9.24530 0.10       60063       20452     0.18800     2.84251 
    2.33600     2.33590     7.00720     9.34360 0.10       60177       20409     0.19000     2.87275 
    2.36140     2.36070     7.08090     9.44220 0.10       60065       21049     0.19200     2.90299 
    2.38620     2.38590     7.15460     9.54050 0.10       60253       21301     0.19400     2.93323 
    2.41160     2.41070     7.22820     9.63880 0.10       60598       21378     0.19600     2.96347 
    2.43650     2.43450     7.30120     9.73730 0.10       60625       21665     0.19800     2.99370 
    2.46000     2.45870     7.37490     9.83560 0.10       60808       22304     0.20000     3.02394 
