'901_2708.nbd' 'Jun 07 2014 01:09' 'I'         45.    1  'TIME'   11  'RAW'
  Filename         Date            Scan       Mon    Prf  Base   #pts  Type    
0.5 mT virgin wafer 901 LHHTML JED191               F1: ON   F2: OFF 
 460    1  500  512 608 512   0   4.7500  0.00000 0.00000   0.00000    1 
 Collimation      Mosaic    Wavelength   T-Start   Incr.   H-field #Det    
  1       2.45871    0.12294    3.68806
  2       2.45871    0.12294    3.68806
  3       4.33562    0.21756    6.51123
  4       8.67123    0.43512   13.02245
  5       7.37612    0.36881   11.06417
  6       9.83482    0.49174   14.75223
 Mot:    Start       Step      End
     A4        A3        A1        A2        A5        A6     MIN      MONITOR      COUNTS   _q    _w  
    8.67100     4.33560     2.45510     2.45870     7.37490     9.83540 0.75      446009          13     0.20000     3.02394 
    9.10550     4.55290     2.57910     2.58210     7.74380    10.32710 0.82      508664           7     0.21000     3.17514 
    9.54000     4.77010     2.70190     2.70460     8.11340    10.81880 0.89      576509           7     0.22000     3.32634 
    9.97480     4.98750     2.82530     2.82770     8.48230    11.31060 0.96      650291           7     0.23000     3.47754 
   10.40970     5.20490     2.94800     2.95050     8.85060    11.80230 1.04      730561           9     0.24000     3.62873 
   10.84470     5.42250     3.07210     3.07330     9.21960    12.29380 1.12      817841           6     0.25000     3.77993 
   11.27990     5.64000     3.19360     3.19630     9.58850    12.78580 1.21      907801           9     0.26000     3.93113 
   11.71520     5.85770     3.31640     3.31940     9.95680    13.27730 1.30 1.00933e+06           7     0.27000     4.08232 
   12.15080     6.07550     3.43920     3.44220    10.32570    13.76930 1.39 1.11412e+06          19     0.28000     4.23352 
   12.58640     6.29330     3.56260     3.56560    10.69530    14.26100 1.48 1.22478e+06          19     0.29000     4.38472 
   13.02230     6.51130     3.68540     3.68810    11.06300    14.75280 1.58 1.34531e+06          35     0.30000     4.53592 
