'916_2760.nbd' 'Jun 08 2014 09:08' 'I'         45.    1  'TIME'   11  'RAW'
  Filename         Date            Scan       Mon    Prf  Base   #pts  Type    
2 mT wafer 916 LHHTML JED191                        F1: ON   F2: OFF 
 460    1  500  512 608 512   0   4.7500  0.00000 0.00000   0.00000    1 
 Collimation      Mosaic    Wavelength   T-Start   Incr.   H-field #Det    
  1       2.45871    0.12294    3.68806
  2       2.45871    0.12294    3.68806
  3       4.33562    0.21756    6.51123
  4       8.67123    0.43512   13.02245
  5       7.37612    0.36881   11.06417
  6       9.83482    0.49174   14.75223
 Mot:    Start       Step      End
     A4        A3        A1        A2        A5        A6     MIN      MONITOR      COUNTS   _q    _w  
    8.67100     4.33560     2.45630     2.45870     7.37490     9.83540 0.75      450389           7     0.20000     3.02394 
    9.10550     4.55290     2.57910     2.58210     7.74380    10.32680 0.82      513287           6     0.21000     3.17514 
    9.54000     4.77020     2.70190     2.70460     8.11340    10.81860 0.89      582012           4     0.22000     3.32634 
    9.97480     4.98750     2.82590     2.82770     8.48230    11.31030 0.96      657153           5     0.23000     3.47754 
   10.40970     5.20490     2.94740     2.95050     8.85060    11.80210 1.04      737945           8     0.24000     3.62873 
   10.84470     5.42250     3.07080     3.07330     9.21960    12.29380 1.12      825154           7     0.25000     3.77993 
   11.27990     5.64010     3.19420     3.19630     9.58850    12.78580 1.21      916901          10     0.26000     3.93113 
   11.71520     5.85770     3.31700     3.31940     9.95680    13.27730 1.30 1.01834e+06          13     0.27000     4.08232 
   12.15080     6.07550     3.43980     3.44220    10.32570    13.76900 1.39 1.12558e+06          15     0.28000     4.23352 
   12.58640     6.29330     3.56380     3.56560    10.69530    14.26080 1.48 1.23955e+06          17     0.29000     4.38472 
   13.02230     6.51130     3.68600     3.68810    11.06360    14.75250 1.58  1.3616e+06          15     0.30000     4.53592 
