'916_2765.nad' 'Jun 08 2014 14:04' 'I'         15.    1  'TIME'   51  'RAW'
  Filename         Date            Scan       Mon    Prf  Base   #pts  Type    
20 mT wafer 916 LHHTML JED191                       F1: OFF  F2: OFF 
 460    1  500  512 608 512   0   4.7500  0.00000 0.00000   0.00000    1 
 Collimation      Mosaic    Wavelength   T-Start   Incr.   H-field #Det    
  1       1.22935    0.02459    2.45871
  2       1.22935    0.02459    2.45871
  3       2.16626    0.04339    4.33562
  4       4.33251    0.08677    8.67123
  5       3.68806    0.07376    7.37612
  6       4.91741    0.09835    9.83482
 Mot:    Start       Step      End
     A4        A3        A1        A2        A5        A6     MIN      MONITOR      COUNTS   _q    _w  
    4.33230     2.16630     1.22720     1.23000     3.68680     4.91820 0.25       80316         210     0.10000     1.51197 
    4.41900     2.20960     1.25200     1.25480     3.76110     5.01650 0.26       84043         239     0.10200     1.54221 
    4.50580     2.25300     1.27620     1.27890     3.83480     5.11500 0.26       88033         223     0.10400     1.57245 
    4.59240     2.29630     1.30100     1.30310     3.90840     5.21310 0.27       91662         175     0.10600     1.60269 
    4.67920     2.33970     1.32580     1.32790     3.98210     5.31140 0.28       95599         141     0.10800     1.63293 
    4.76580     2.38300     1.35000     1.35240     4.05640     5.40970 0.29       99689          96     0.11000     1.66317 
    4.85250     2.42640     1.37480     1.37690     4.13000     5.50800 0.29      103782          51     0.11200     1.69341 
    4.93930     2.46970     1.39900     1.40200     4.20430     5.60630 0.30      108827          13     0.11400     1.72365 
    5.02590     2.51310     1.42440     1.42650     4.27800     5.70480 0.31      112748           7     0.11600     1.75389 
    5.11270     2.55640     1.44980     1.45100     4.35170     5.80310 0.32      118059           6     0.11800     1.78413 
    5.19940     2.59980     1.47340     1.47550     4.42530     5.90170 0.32      122504          11     0.12000     1.81437 
    5.28610     2.64320     1.49880     1.50000     4.49900     6.00000 0.33      127579          11     0.12200     1.84461 
    5.37280     2.68650     1.52300     1.52450     4.57260     6.09830 0.34      133085          10     0.12400     1.87485 
    5.45950     2.72990     1.54720     1.54900     4.64690     6.19650 0.35      137085          10     0.12600     1.90508 
    5.54630     2.77330     1.57450     1.57380     4.72060     6.29480 0.36      142386           5     0.12800     1.93532 
    5.63300     2.81660     1.59870     1.59860     4.79360     6.39310 0.36      148488           6     0.13000     1.96556 
    5.71980     2.86000     1.61980     1.62340     4.86730     6.49170 0.37      153254          12     0.13200     1.99580 
    5.80650     2.90340     1.64460     1.64820     4.94090     6.59000 0.38      159678           4     0.13400     2.02604 
    5.89330     2.94670     1.67000     1.67210     5.01460     6.68830 0.39      165871          18     0.13600     2.05628 
    5.98000     2.99010     1.69350     1.69660     5.08830     6.78680 0.40      172212          12     0.13800     2.08652 
    6.06680     3.03350     1.71840     1.72110     5.16260     6.88460 0.41      178428          14     0.14000     2.11676 
    6.15350     3.07690     1.74380     1.74530     5.23690     6.98340 0.42      184744          20     0.14200     2.14700 
    6.24030     3.12020     1.76670     1.77010     5.31050     7.08150 0.43      190976          18     0.14400     2.17724 
    6.32700     3.16360     1.79210     1.79460     5.38420     7.18000 0.44      198703          26     0.14600     2.20748 
    6.41380     3.20700     1.81760     1.81970     5.45780     7.27830 0.45      204626          29     0.14800     2.23772 
    6.50050     3.25040     1.84240     1.84450     5.53150     7.37690 0.46      212690          23     0.15000     2.26796 
    6.58730     3.29380     1.86720     1.86870     5.60580     7.47520 0.47      219682          39     0.15200     2.29820 
    6.67400     3.33720     1.89070     1.89350     5.67950     7.57370 0.48      227346          33     0.15400     2.32844 
    6.76090     3.38050     1.91560     1.91770     5.75310     7.67180 0.49      235432          41     0.15600     2.35868 
    6.84780     3.42390     1.94040     1.94250     5.82680     7.77010 0.50      243092          39     0.15800     2.38892 
    6.93440     3.46730     1.96450     1.96730     5.90040     7.86840 0.51      250506          53     0.16000     2.41916 
    7.02120     3.51070     1.99180     1.99180     5.97410     7.96690 0.52      260387          59     0.16200     2.44939 
    7.10800     3.55410     2.01600     2.01660     6.04840     8.06520 0.53      268238          75     0.16400     2.47963 
    7.19480     3.59750     2.04080     2.04110     6.12140     8.16350 0.54      276628          98     0.16600     2.50987 
    7.28170     3.64090     2.06560     2.06560     6.19510     8.26180 0.55      284814         125     0.16800     2.54011 
    7.36840     3.68430     2.09040     2.08970     6.26870     8.36010 0.56      293377         143     0.17000     2.57035 
    7.45530     3.72770     2.11460     2.11420     6.34240     8.45840 0.58      303740         170     0.17200     2.60059 
    7.54200     3.77110     2.13940     2.13900     6.41610     8.55700 0.59      312876         226     0.17400     2.63083 
    7.62890     3.81450     2.16360     2.16380     6.49030     8.65530 0.60      321249         262     0.17600     2.66107 
    7.71570     3.85800     2.18840     2.18830     6.56400     8.75360 0.61      332289         261     0.17800     2.69131 
    7.80250     3.90140     2.21380     2.21280     6.63830     8.85190 0.62      341665         277     0.18000     2.72155 
    7.88940     3.94480     2.23930     2.23760     6.71200     8.95040 0.64      352224         265     0.18200     2.75179 
    7.97620     3.98820     2.26280     2.26240     6.78630     9.04870 0.65      362472         253     0.18400     2.78203 
    8.06300     4.03160     2.28700     2.28660     6.85990     9.14700 0.66      372589         240     0.18600     2.81227 
    8.15000     4.07510     2.31120     2.31170     6.93290     9.24510 0.67      384829         185     0.18800     2.84251 
    8.23680     4.11850     2.33600     2.33590     7.00720     9.34340 0.69      395328         156     0.19000     2.87275 
    8.32350     4.16190     2.36020     2.36070     7.08090     9.44190 0.70      405652         135     0.19200     2.90299 
    8.41040     4.20540     2.38370     2.38550     7.15460     9.54050 0.71      418464         102     0.19400     2.93323 
    8.49730     4.24880     2.40920     2.41030     7.22820     9.63880 0.72      427177          86     0.19600     2.96347 
    8.58420     4.29220     2.43400     2.43450     7.30120     9.73710 0.74      439501          75     0.19800     2.99370 
    8.67100     4.33560     2.45820     2.45870     7.37490     9.83540 0.75      451687          79     0.20000     3.02394 
